{
  "resourceType": "Bundle",
  "id": "Bundle-FindCandidates-Response-MomsPHN-Example",
  "meta": {
    "profile": [
      "http://hlth.gov.bc.ca/fhir/client/StructureDefinition/bc-search-response-bundle"
    ]
  },
  "identifier": {
    "system": "urn:ietf:rfc:3986",
    "value": "urn:uuid:e770dd20-7fe9-406f-a57c-52ed466f7a3b"
  },
  "type": "searchset",
  "timestamp": "2011-09-13T16:11:43.000-07:00",
  "total": 3,
  "link": [
    {
      "relation": "self",
      "url": "urn:uuid:98028b44-882a-4c72-8c92-b87d916147e1"
    }
  ],
  "entry": [
    {
      "fullUrl": "61061501-9953-4fba-87fe-6ae30e79da33",
      "resource": {
        "resourceType": "Parameters",
        "id": "Parameters-FindCandidates-Response-Example",
        "meta": {
          "profile": [
            "http://hlth.gov.bc.ca/fhir/client/StructureDefinition/bc-metadata-parameters"
          ]
        },
        "parameter": [
          {
            "name": "messageId",
            "valueString": "c087e71e-3e7e-4c22-a3ce-61523f600615"
          },
          {
            "name": "messageDateTime",
            "valueDateTime": "2015-02-07T13:29:17-08:00"
          },
          {
            "name": "sender",
            "valueIdentifier": {
              "system": "http://hlth.gov.bc.ca/fhir/client/bc-org",
              "value": "MOH_CRS"
            }
          },
          {
            "name": "requestMessageId",
            "valueString": "98028b44-882a-4c72-8c92-b87d916147e1"
          }
        ]
      },
      "search": {
        "mode": "include"
      }
    },
    {
      "fullUrl": "urn:uuid:2d028b44-882a-4c72-8c92-b87d916147e1",
      "resource": {
        "resourceType": "OperationOutcome",
        "id": "OperationOutcome-Search-Example",
        "text": {
          "status": "generated",
          "div": "<div xmlns=\"http://www.w3.org/1999/xhtml\"><p><b>Generated Narrative</b></p><div style=\"display: inline-block; background-color: #d9e0e7; padding: 6px; margin: 4px; border: 1px solid #8da1b4; border-radius: 5px; line-height: 60%\"><p style=\"margin-bottom: 0px\">Resource \"OperationOutcome-Search-Example\" </p></div><blockquote><p><b>issue</b></p><p><b>severity</b>: warning</p><p><b>code</b>: business-rule</p><p><b>details</b>: Warning: The Find Candidates Patient name has been modified to filter out invalid characters. <span style=\"background: LightGoldenRodYellow; margin: 4px; border: 1px solid khaki\"> (bc-oo-codes#BCHCIM.GD.1.0017)</span></p></blockquote><blockquote><p><b>issue</b></p><p><b>severity</b>: error</p><p><b>code</b>: business-rule</p><p><b>details</b>: The HL7 message is invalid. Please correct the HL7 message, and resubmit it. (System.Exception: Results from Schematron validation: ... <span style=\"background: LightGoldenRodYellow; margin: 4px; border: 1px solid khaki\"> (bc-oo-codes#BCHCIM.GD.1.0017)</span></p></blockquote></div>"
        },
        "issue": [
          {
            "severity": "warning",
            "code": "business-rule",
            "details": {
              "coding": [
                {
                  "system": "http://hlth.gov.bc.ca/fhir/client/bc-oo-codes",
                  "code": "BCHCIM.GD.1.0017"
                }
              ],
              "text": "Warning: The Find Candidates Patient name has been modified to filter out invalid characters."
            }
          },
          {
            "severity": "error",
            "code": "business-rule",
            "details": {
              "coding": [
                {
                  "system": "http://hlth.gov.bc.ca/fhir/client/bc-oo-codes",
                  "code": "BCHCIM.GD.1.0017"
                }
              ],
              "text": "The HL7 message is invalid. Please correct the HL7 message, and resubmit it. (System.Exception: Results from Schematron validation: ..."
            }
          }
        ]
      },
      "search": {
        "mode": "outcome"
      }
    },
    {
      "fullUrl": "urn:uuid:c789da11-0e78-4eb5-a9b2-d31d8249fd50",
      "resource": {
        "resourceType": "Patient",
        "id": "Patient-BabyGirl-Example",
        "meta": {
          "profile": [
            "http://hlth.gov.bc.ca/fhir/client/StructureDefinition/bc-patient"
          ]
        },
        "text": {
          "status": "extensions",
          "div": "<div xmlns=\"http://www.w3.org/1999/xhtml\"><p><b>Generated Narrative</b></p><div style=\"display: inline-block; background-color: #d9e0e7; padding: 6px; margin: 4px; border: 1px solid #8da1b4; border-radius: 5px; line-height: 60%\"><p style=\"margin-bottom: 0px\">Resource \"Patient-BabyGirl-Example\" </p><p style=\"margin-bottom: 0px\">Profile: <a href=\"StructureDefinition-bc-patient.html\">BCPatient</a></p></div><p><b>BC Business Dates</b>: 2019-11-12T13:21:13-08:00 --&gt; (ongoing)</p><p><b>identifier</b>: Jurisdictional health number: 9123123123</p><p><b>name</b>: Baby Girl PURPLE </p><p><b>telecom</b>: ph: 2504283447(HOME)</p><p><b>gender</b>: female</p><p><b>birthDate</b>: 2019-12-12</p><p><b>address</b>: </p><ul><li>123 FRONT ST VICTORIA BC V6N2W2 CA </li><li>432 Douglas St Victoria BC V6N2R2 CA </li></ul></div>"
        },
        "extension": [
          {
            "url": "http://hlth.gov.bc.ca/fhir/client/StructureDefinition/bc-business-period-extension",
            "valuePeriod": {
              "start": "2019-11-12T13:21:13-08:00"
            }
          }
        ],
        "identifier": [
          {
            "type": {
              "coding": [
                {
                  "system": "http://terminology.hl7.org/CodeSystem/v2-0203",
                  "code": "JHN"
                }
              ]
            },
            "system": "http://hlth.gov.bc.ca/fhir/client/bc-sri",
            "value": "9123123123"
          }
        ],
        "name": [
          {
            "use": "usual",
            "family": "PURPLE",
            "given": [
              "Baby Girl"
            ]
          }
        ],
        "telecom": [
          {
            "system": "phone",
            "value": "2504283447",
            "use": "home"
          }
        ],
        "gender": "female",
        "_gender": {
          "extension": [
            {
              "url": "http://hlth.gov.bc.ca/fhir/client/StructureDefinition/bc-business-period-extension",
              "valuePeriod": {
                "start": "2017-04-05T16:16:16-08:00"
              }
            }
          ]
        },
        "birthDate": "2019-12-12",
        "_birthDate": {
          "extension": [
            {
              "url": "http://hlth.gov.bc.ca/fhir/client/StructureDefinition/bc-business-period-extension",
              "valuePeriod": {
                "start": "2019-11-12T03:29:17-08:00"
              }
            }
          ]
        },
        "address": [
          {
            "extension": [
              {
                "url": "http://hlth.gov.bc.ca/fhir/client/StructureDefinition/bc-validation-status-extension",
                "valueCode": "valid"
              }
            ],
            "type": "physical",
            "line": [
              "123 FRONT ST"
            ],
            "city": "VICTORIA",
            "state": "BC",
            "postalCode": "V6N2W2",
            "country": "CA"
          },
          {
            "extension": [
              {
                "url": "http://hlth.gov.bc.ca/fhir/client/StructureDefinition/bc-validation-status-extension",
                "valueCode": "invalid"
              }
            ],
            "type": "postal",
            "line": [
              "432 Douglas St"
            ],
            "city": "Victoria",
            "state": "BC",
            "postalCode": "V6N2R2",
            "country": "CA"
          }
        ]
      },
      "search": {
        "mode": "match",
        "score": 100
      }
    },
    {
      "fullUrl": "urn:uuid:90bf49dc-4590-4302-8e28-f02bb4deb353",
      "resource": {
        "resourceType": "Patient",
        "id": "Patient-BabyBoy-Example",
        "meta": {
          "profile": [
            "http://hlth.gov.bc.ca/fhir/client/StructureDefinition/bc-patient"
          ]
        },
        "text": {
          "status": "extensions",
          "div": "<div xmlns=\"http://www.w3.org/1999/xhtml\"><p><b>Generated Narrative</b></p><div style=\"display: inline-block; background-color: #d9e0e7; padding: 6px; margin: 4px; border: 1px solid #8da1b4; border-radius: 5px; line-height: 60%\"><p style=\"margin-bottom: 0px\">Resource \"Patient-BabyBoy-Example\" </p><p style=\"margin-bottom: 0px\">Profile: <a href=\"StructureDefinition-bc-patient.html\">BCPatient</a></p></div><p><b>BC Business Dates</b>: 2019-11-12T13:29:17-08:00 --&gt; (ongoing)</p><p><b>identifier</b>: Jurisdictional health number: 9123123124</p><p><b>name</b>: Baby Boy PURPLE </p><p><b>telecom</b>: ph: 2504283447(HOME)</p><p><b>gender</b>: male</p><p><b>birthDate</b>: 2019-12-12</p><p><b>address</b>: </p><ul><li>123 FRONT ST VICTORIA BC V6N2W2 CA </li><li>432 Douglas St Victoria BC V6N2R2 CA </li></ul></div>"
        },
        "extension": [
          {
            "url": "http://hlth.gov.bc.ca/fhir/client/StructureDefinition/bc-business-period-extension",
            "valuePeriod": {
              "start": "2019-11-12T13:29:17-08:00"
            }
          }
        ],
        "identifier": [
          {
            "type": {
              "coding": [
                {
                  "system": "http://terminology.hl7.org/CodeSystem/v2-0203",
                  "code": "JHN"
                }
              ]
            },
            "system": "http://hlth.gov.bc.ca/fhir/client/bc-sri",
            "value": "9123123124"
          }
        ],
        "name": [
          {
            "use": "usual",
            "family": "PURPLE",
            "given": [
              "Baby Boy"
            ]
          }
        ],
        "telecom": [
          {
            "system": "phone",
            "value": "2504283447",
            "use": "home"
          }
        ],
        "gender": "male",
        "_gender": {
          "extension": [
            {
              "url": "http://hlth.gov.bc.ca/fhir/client/StructureDefinition/bc-business-period-extension",
              "valuePeriod": {
                "start": "2017-04-05T16:16:16-08:00"
              }
            }
          ]
        },
        "birthDate": "2019-12-12",
        "_birthDate": {
          "extension": [
            {
              "url": "http://hlth.gov.bc.ca/fhir/client/StructureDefinition/bc-business-period-extension",
              "valuePeriod": {
                "start": "2019-11-12T03:29:17-08:00"
              }
            }
          ]
        },
        "address": [
          {
            "extension": [
              {
                "url": "http://hlth.gov.bc.ca/fhir/client/StructureDefinition/bc-validation-status-extension",
                "valueCode": "valid"
              }
            ],
            "type": "physical",
            "line": [
              "123 FRONT ST"
            ],
            "city": "VICTORIA",
            "state": "BC",
            "postalCode": "V6N2W2",
            "country": "CA"
          },
          {
            "extension": [
              {
                "url": "http://hlth.gov.bc.ca/fhir/client/StructureDefinition/bc-validation-status-extension",
                "valueCode": "invalid"
              }
            ],
            "type": "postal",
            "line": [
              "432 Douglas St"
            ],
            "city": "Victoria",
            "state": "BC",
            "postalCode": "V6N2R2",
            "country": "CA"
          }
        ]
      },
      "search": {
        "mode": "match",
        "score": 100
      }
    },
    {
      "fullUrl": "urn:uuid:072f48b7-43c5-4bec-8798-026cc432adcf",
      "resource": {
        "resourceType": "Patient",
        "id": "Patient-Mother-Example",
        "meta": {
          "profile": [
            "http://hlth.gov.bc.ca/fhir/client/StructureDefinition/bc-patient"
          ]
        },
        "text": {
          "status": "extensions",
          "div": "<div xmlns=\"http://www.w3.org/1999/xhtml\"><p><b>Generated Narrative</b></p><div style=\"display: inline-block; background-color: #d9e0e7; padding: 6px; margin: 4px; border: 1px solid #8da1b4; border-radius: 5px; line-height: 60%\"><p style=\"margin-bottom: 0px\">Resource \"Patient-Mother-Example\" </p><p style=\"margin-bottom: 0px\">Profile: <a href=\"StructureDefinition-bc-patient.html\">BCPatient</a></p></div><p><b>BC Business Dates</b>: 2019-02-07T13:29:17-08:00 --&gt; (ongoing)</p><p><b>identifier</b>: Jurisdictional health number: 9999999999</p><p><b>name</b>: BAILEY PURPLE </p><p><b>telecom</b>: ph: 2504283447(HOME)</p><p><b>gender</b>: female</p><p><b>birthDate</b>: 1985-12-14</p><p><b>address</b>: </p><ul><li>123 FRONT ST VICTORIA BC V6N2W2 CA </li><li>432 Douglas St Victoria BC V6N2R2 CA </li></ul><blockquote><p><b>link</b></p><p><b>other</b>: <a href=\"#RelatedPerson_RelatedPerson-MotherOfBabyBoy-Example\">See above (urn:uuid:425b6c71-b198-4e75-b32c-1b3086935c6a)</a></p><p><b>type</b>: seealso</p></blockquote><blockquote><p><b>link</b></p><p><b>other</b>: <a href=\"#RelatedPerson_RelatedPerson-MotherOfBabyGirl-Example\">See above (urn:uuid:4a288971-8af6-4d77-a071-4ba3a10042e5)</a></p><p><b>type</b>: seealso</p></blockquote></div>"
        },
        "extension": [
          {
            "url": "http://hlth.gov.bc.ca/fhir/client/StructureDefinition/bc-business-period-extension",
            "valuePeriod": {
              "start": "2019-02-07T13:29:17-08:00"
            }
          }
        ],
        "identifier": [
          {
            "type": {
              "coding": [
                {
                  "system": "http://terminology.hl7.org/CodeSystem/v2-0203",
                  "code": "JHN"
                }
              ]
            },
            "system": "http://hlth.gov.bc.ca/fhir/client/bc-sri",
            "value": "9999999999"
          }
        ],
        "name": [
          {
            "use": "usual",
            "family": "PURPLE",
            "given": [
              "BAILEY"
            ]
          }
        ],
        "telecom": [
          {
            "system": "phone",
            "value": "2504283447",
            "use": "home"
          }
        ],
        "gender": "female",
        "_gender": {
          "extension": [
            {
              "url": "http://hlth.gov.bc.ca/fhir/client/StructureDefinition/bc-business-period-extension",
              "valuePeriod": {
                "start": "2017-04-05T16:16:16-08:00"
              }
            }
          ]
        },
        "birthDate": "1985-12-14",
        "_birthDate": {
          "extension": [
            {
              "url": "http://hlth.gov.bc.ca/fhir/client/StructureDefinition/bc-business-period-extension",
              "valuePeriod": {
                "start": "2019-10-17T03:29:17-08:00"
              }
            }
          ]
        },
        "address": [
          {
            "extension": [
              {
                "url": "http://hlth.gov.bc.ca/fhir/client/StructureDefinition/bc-validation-status-extension",
                "valueCode": "valid"
              }
            ],
            "type": "physical",
            "line": [
              "123 FRONT ST"
            ],
            "city": "VICTORIA",
            "state": "BC",
            "postalCode": "V6N2W2",
            "country": "CA"
          },
          {
            "extension": [
              {
                "url": "http://hlth.gov.bc.ca/fhir/client/StructureDefinition/bc-validation-status-extension",
                "valueCode": "invalid"
              }
            ],
            "type": "postal",
            "line": [
              "432 Douglas St"
            ],
            "city": "Victoria",
            "state": "BC",
            "postalCode": "V6N2R2",
            "country": "CA"
          }
        ],
        "link": [
          {
            "other": {
              "reference": "urn:uuid:425b6c71-b198-4e75-b32c-1b3086935c6a"
            },
            "type": "seealso"
          },
          {
            "other": {
              "reference": "urn:uuid:4a288971-8af6-4d77-a071-4ba3a10042e5"
            },
            "type": "seealso"
          }
        ]
      },
      "search": {
        "mode": "match",
        "score": 100
      }
    },
    {
      "fullUrl": "urn:uuid:425b6c71-b198-4e75-b32c-1b3086935c6a",
      "resource": {
        "resourceType": "RelatedPerson",
        "id": "RelatedPerson-MotherOfBabyBoy-Example",
        "text": {
          "status": "generated",
          "div": "<div xmlns=\"http://www.w3.org/1999/xhtml\"><p><b>Generated Narrative</b></p><div style=\"display: inline-block; background-color: #d9e0e7; padding: 6px; margin: 4px; border: 1px solid #8da1b4; border-radius: 5px; line-height: 60%\"><p style=\"margin-bottom: 0px\">Resource \"RelatedPerson-MotherOfBabyBoy-Example\" </p></div><p><b>patient</b>: <a href=\"#Patient_Patient-BabyBoy-Example\">See above (urn:uuid:90bf49dc-4590-4302-8e28-f02bb4deb353)</a></p><p><b>relationship</b>: natural child <span style=\"background: LightGoldenRodYellow; margin: 4px; border: 1px solid khaki\"> (<a href=\"http://terminology.hl7.org/3.0.0/CodeSystem-v3-RoleCode.html\">RoleCode</a>#NCHILD)</span></p></div>"
        },
        "patient": {
          "reference": "urn:uuid:90bf49dc-4590-4302-8e28-f02bb4deb353"
        },
        "relationship": [
          {
            "coding": [
              {
                "system": "http://terminology.hl7.org/CodeSystem/v3-RoleCode",
                "code": "NCHILD"
              }
            ]
          }
        ]
      },
      "search": {
        "mode": "include"
      }
    },
    {
      "fullUrl": "urn:uuid:4a288971-8af6-4d77-a071-4ba3a10042e5",
      "resource": {
        "resourceType": "RelatedPerson",
        "id": "RelatedPerson-MotherOfBabyGirl-Example",
        "text": {
          "status": "generated",
          "div": "<div xmlns=\"http://www.w3.org/1999/xhtml\"><p><b>Generated Narrative</b></p><div style=\"display: inline-block; background-color: #d9e0e7; padding: 6px; margin: 4px; border: 1px solid #8da1b4; border-radius: 5px; line-height: 60%\"><p style=\"margin-bottom: 0px\">Resource \"RelatedPerson-MotherOfBabyGirl-Example\" </p></div><p><b>patient</b>: <a href=\"#Patient_Patient-BabyGirl-Example\">See above (urn:uuid:c789da11-0e78-4eb5-a9b2-d31d8249fd50)</a></p><p><b>relationship</b>: natural child <span style=\"background: LightGoldenRodYellow; margin: 4px; border: 1px solid khaki\"> (<a href=\"http://terminology.hl7.org/3.0.0/CodeSystem-v3-RoleCode.html\">RoleCode</a>#NCHILD)</span></p></div>"
        },
        "patient": {
          "reference": "urn:uuid:c789da11-0e78-4eb5-a9b2-d31d8249fd50"
        },
        "relationship": [
          {
            "coding": [
              {
                "system": "http://terminology.hl7.org/CodeSystem/v3-RoleCode",
                "code": "NCHILD"
              }
            ]
          }
        ]
      },
      "search": {
        "mode": "include"
      }
    }
  ]
}