<?xml version="1.0" encoding="UTF-8"?>

<Bundle xmlns="http://hl7.org/fhir">
  <id value="Bundle-FindCandidates-Response-MomsPHN-Example"/>
  <meta>
    <profile value="http://hlth.gov.bc.ca/fhir/client/StructureDefinition/bc-search-response-bundle"/>
  </meta>
  <type value="searchset"/>
  <timestamp value="2011-09-13T16:11:43.000-07:00"/>
  <total value="2"/>
  <link>
    <relation value="self"/>
    <url value="urn:uuid:98028b44-882a-4c72-8c92-b87d916147e1"/>
  </link>
  <entry>
    <fullUrl value="61061501-9953-4fba-87fe-6ae30e79da33"/>
    <resource>
      <Parameters>
        <id value="Parameters-FindCandidates-Response-Example"/>
        <meta>
          <profile value="http://hlth.gov.bc.ca/fhir/client/StructureDefinition/bc-metadata-parameters-out"/>
        </meta>
        <parameter>
          <name value="messageId"/>
          <valueString value="c087e71e-3e7e-4c22-a3ce-61523f600615"/>
        </parameter>
        <parameter>
          <name value="messageDateTime"/>
          <valueDateTime value="2015-02-07T13:29:17-08:00"/>
        </parameter>
        <parameter>
          <name value="sender"/>
          <valueIdentifier>
            <system value="http://hlth.gov.bc.ca/fhir/client/bc-org"/>
            <value value="123123345"/>
          </valueIdentifier>
        </parameter>
        <parameter>
          <name value="requestMessageId"/>
          <valueString value="98028b44-882a-4c72-8c92-b87d916147e1"/>
        </parameter>
        <parameter>
          <name value="requestParameters"/>
          <resource>
            <Parameters>
              <id value="Parameters-FindCandidates-Example"/>
              <meta>
                <profile value="http://hlth.gov.bc.ca/fhir/client/StructureDefinition/bc-metadata-parameters-in"/>
              </meta>
              <parameter>
                <name value="messageId"/>
                <valueString value="98028b44-882a-4c72-8c92-b87d916147e1"/>
              </parameter>
              <parameter>
                <name value="messageDateTime"/>
                <valueDateTime value="2015-02-07T13:28:17-08:00"/>
              </parameter>
              <parameter>
                <name value="identifiersOnly"/>
                <valueBoolean value="false"/>
              </parameter>
            </Parameters>
          </resource>
        </parameter>
      </Parameters>
    </resource>
    <search>
      <mode value="include"/>
    </search>
  </entry>
  <entry>
    <fullUrl value="urn:uuid:2d028b44-882a-4c72-8c92-b87d916147e1"/>
    <resource>
      <OperationOutcome>
        <id value="OperationOutcome-Search-Example"/>
        <text>
          <status value="generated"/><div xmlns="http://www.w3.org/1999/xhtml"><p><b>Generated Narrative</b></p><div style="display: inline-block; background-color: #d9e0e7; padding: 6px; margin: 4px; border: 1px solid #8da1b4; border-radius: 5px; line-height: 60%"><p style="margin-bottom: 0px">Resource "OperationOutcome-Search-Example" </p></div><h3>Issues</h3><table class="grid"><tr><td>-</td><td><b>Severity</b></td><td><b>Code</b></td><td><b>Details</b></td></tr><tr><td>*</td><td>warning</td><td>business-rule</td><td>Warning: The identifier you used in the query has been merged. The surviving identifier was returned. <span style="background: LightGoldenRodYellow; margin: 4px; border: 1px solid khaki"> (bc-oo-codes#BCHCIM.GD.0.0015)</span></td></tr></table></div>
        </text>
        <issue>
          <severity value="warning"/>
          <code value="business-rule"/>
          <details>
            <coding>
              <system value="http://hlth.gov.bc.ca/fhir/client/bc-oo-codes"/>
              <code value="BCHCIM.GD.0.0015"/>
            </coding>
            <text value="Warning: The identifier you used in the query has been merged. The surviving identifier was returned."/>
          </details>
        </issue>
      </OperationOutcome>
    </resource>
    <search>
      <mode value="outcome"/>
    </search>
  </entry>
  <entry>
    <fullUrl value="urn:uuid:c789da11-0e78-4eb5-a9b2-d31d8249fd50"/>
    <resource>
      <Patient>
        <id value="Patient-BabyGirl-Example"/>
        <meta>
          <profile value="http://hlth.gov.bc.ca/fhir/client/StructureDefinition/bc-patient"/>
        </meta>
        <text>
          <status value="extensions"/><div xmlns="http://www.w3.org/1999/xhtml"><p><b>Generated Narrative</b></p><div style="display: inline-block; background-color: #d9e0e7; padding: 6px; margin: 4px; border: 1px solid #8da1b4; border-radius: 5px; line-height: 60%"><p style="margin-bottom: 0px">Resource "Patient-BabyGirl-Example" </p><p style="margin-bottom: 0px">Profile: <a href="StructureDefinition-bc-patient.html">ClientRegistryPatient</a></p></div><p><b>BC Business Dates</b>: 2019-11-12 01:21:13-0800 --&gt; (ongoing)</p><p><b>identifier</b>: Jurisdictional health number: 9123456789 (OFFICIAL)</p><p><b>name</b>: Jane Doe </p><p><b>telecom</b>: ph: 2505554848(HOME)</p><p><b>gender</b>: female</p><p><b>birthDate</b>: 2019-12-12</p><p><b>address</b>: </p><ul><li>721 FRONT ST VICTORIA BC V9A3Y3 CA </li><li>721 FRONT AVE Victoria BC V9A3V3 CA </li></ul></div>
        </text>
        <extension url="http://hlth.gov.bc.ca/fhir/client/StructureDefinition/bc-business-period-extension">
          <valuePeriod>
            <start value="2019-11-12T13:21:13-08:00"/>
          </valuePeriod>
        </extension>
        <identifier>
          <use value="official"/>
          <type>
            <coding>
              <system value="http://terminology.hl7.org/CodeSystem/v2-0203"/>
              <code value="JHN"/>
            </coding>
          </type>
          <system value="http://hlth.gov.bc.ca/fhir/client/id-issuer/BC"/>
          <value value="9123456789"/>
          <period>
            <start value="2000-01-01T11:11:11+08:00"/>
          </period>
        </identifier>
        <name>
          <use value="usual"/>
          <family value="Doe"/>
          <given value="Jane"/>
          <period>
            <start value="2018-04-05"/>
          </period>
        </name>
        <telecom>
          <system value="phone"/>
          <value value="2505554848"/>
          <use value="home"/>
          <period>
            <start value="2000-01-02T10:10:10-08:00"/>
          </period>
        </telecom>
        <gender value="female">
          <extension url="http://hlth.gov.bc.ca/fhir/client/StructureDefinition/bc-business-period-extension">
            <valuePeriod>
              <start value="2017-04-05T16:16:16-08:00"/>
            </valuePeriod>
          </extension>
        </gender>
        <birthDate value="2019-12-12">
          <extension url="http://hlth.gov.bc.ca/fhir/client/StructureDefinition/bc-business-period-extension">
            <valuePeriod>
              <start value="2019-11-12T03:29:17-08:00"/>
            </valuePeriod>
          </extension>
        </birthDate>
        <address>
          <extension url="http://hlth.gov.bc.ca/fhir/client/StructureDefinition/bc-validation-status-extension">
            <valueCode value="valid"/>
          </extension>
          <type value="physical"/>
          <line value="721 FRONT ST"/>
          <city value="VICTORIA"/>
          <state value="BC"/>
          <postalCode value="V9A3Y3"/>
          <country value="CA"/>
        </address>
        <address>
          <extension url="http://hlth.gov.bc.ca/fhir/client/StructureDefinition/bc-validation-status-extension">
            <valueCode value="invalid"/>
          </extension>
          <type value="postal"/>
          <line value="721 FRONT AVE"/>
          <city value="Victoria"/>
          <state value="BC"/>
          <postalCode value="V9A3V3"/>
          <country value="CA"/>
        </address>
      </Patient>
    </resource>
    <search>
      <mode value="match"/>
      <score value="100"/>
    </search>
  </entry>
  <entry>
    <fullUrl value="urn:uuid:90bf49dc-4590-4302-8e28-f02bb4deb353"/>
    <resource>
      <Patient>
        <id value="Patient-BabyBoy-Example"/>
        <meta>
          <profile value="http://hlth.gov.bc.ca/fhir/client/StructureDefinition/bc-patient"/>
        </meta>
        <text>
          <status value="extensions"/><div xmlns="http://www.w3.org/1999/xhtml"><p><b>Generated Narrative</b></p><div style="display: inline-block; background-color: #d9e0e7; padding: 6px; margin: 4px; border: 1px solid #8da1b4; border-radius: 5px; line-height: 60%"><p style="margin-bottom: 0px">Resource "Patient-BabyBoy-Example" </p><p style="margin-bottom: 0px">Profile: <a href="StructureDefinition-bc-patient.html">ClientRegistryPatient</a></p></div><p><b>BC Business Dates</b>: 2019-11-12 01:29:17-0800 --&gt; (ongoing)</p><p><b>identifier</b>: Jurisdictional health number: 9123456789 (OFFICIAL)</p><p><b>name</b>: John Johnny Doe </p><p><b>telecom</b>: ph: 2505554848(HOME)</p><p><b>gender</b>: male</p><p><b>birthDate</b>: 2019-12-12</p><p><b>address</b>: </p><ul><li>721 FRONT ST VICTORIA BC V9A3Y3 CA </li><li>721 FRONT AVE Victoria BC V9A3V3 CA </li></ul></div>
        </text>
        <extension url="http://hlth.gov.bc.ca/fhir/client/StructureDefinition/bc-business-period-extension">
          <valuePeriod>
            <start value="2019-11-12T13:29:17-08:00"/>
          </valuePeriod>
        </extension>
        <identifier>
          <use value="official"/>
          <type>
            <coding>
              <system value="http://terminology.hl7.org/CodeSystem/v2-0203"/>
              <code value="JHN"/>
            </coding>
          </type>
          <system value="http://hlth.gov.bc.ca/fhir/client/id-issuer/BC"/>
          <value value="9123456789"/>
          <period>
            <start value="2000-01-01T11:11:11+08:00"/>
          </period>
        </identifier>
        <name>
          <use value="usual"/>
          <family value="Doe"/>
          <given value="John"/>
          <given value="Johnny"/>
          <period>
            <start value="2017-04-05"/>
          </period>
        </name>
        <telecom>
          <system value="phone"/>
          <value value="2505554848"/>
          <use value="home"/>
          <period>
            <start value="2000-01-02T10:10:10-08:00"/>
          </period>
        </telecom>
        <gender value="male">
          <extension url="http://hlth.gov.bc.ca/fhir/client/StructureDefinition/bc-business-period-extension">
            <valuePeriod>
              <start value="2017-04-05T16:16:16-08:00"/>
            </valuePeriod>
          </extension>
        </gender>
        <birthDate value="2019-12-12">
          <extension url="http://hlth.gov.bc.ca/fhir/client/StructureDefinition/bc-business-period-extension">
            <valuePeriod>
              <start value="2019-11-12T03:29:17-08:00"/>
            </valuePeriod>
          </extension>
        </birthDate>
        <address>
          <extension url="http://hlth.gov.bc.ca/fhir/client/StructureDefinition/bc-validation-status-extension">
            <valueCode value="valid"/>
          </extension>
          <type value="physical"/>
          <line value="721 FRONT ST"/>
          <city value="VICTORIA"/>
          <state value="BC"/>
          <postalCode value="V9A3Y3"/>
          <country value="CA"/>
        </address>
        <address>
          <extension url="http://hlth.gov.bc.ca/fhir/client/StructureDefinition/bc-validation-status-extension">
            <valueCode value="invalid"/>
          </extension>
          <type value="postal"/>
          <line value="721 FRONT AVE"/>
          <city value="Victoria"/>
          <state value="BC"/>
          <postalCode value="V9A3V3"/>
          <country value="CA"/>
        </address>
      </Patient>
    </resource>
    <search>
      <mode value="match"/>
      <score value="100"/>
    </search>
  </entry>
  <entry>
    <fullUrl value="urn:uuid:425b6c71-b198-4e75-b32c-1b3086935c6a"/>
    <resource>
      <RelatedPerson>
        <id value="RelatedPerson-MotherOfBabyBoy-Example"/>
        <text>
          <status value="generated"/><div xmlns="http://www.w3.org/1999/xhtml"><p><b>Generated Narrative</b></p><div style="display: inline-block; background-color: #d9e0e7; padding: 6px; margin: 4px; border: 1px solid #8da1b4; border-radius: 5px; line-height: 60%"><p style="margin-bottom: 0px">Resource "RelatedPerson-MotherOfBabyBoy-Example" </p></div><p><b>identifier</b>: Jurisdictional health number: 9123456788 (OFFICIAL)</p><p><b>patient</b>: <a href="#Patient_Patient-BabyBoy-Example">See above (urn:uuid:90bf49dc-4590-4302-8e28-f02bb4deb353)</a></p><p><b>relationship</b>: natural mother <span style="background: LightGoldenRodYellow; margin: 4px; border: 1px solid khaki"> (<a href="http://terminology.hl7.org/3.1.0/CodeSystem-v3-RoleCode.html">RoleCode</a>#NMTH)</span></p></div>
        </text>
        <identifier>
          <use value="official"/>
          <type>
            <coding>
              <system value="http://terminology.hl7.org/CodeSystem/v2-0203"/>
              <code value="JHN"/>
            </coding>
          </type>
          <system value="http://hlth.gov.bc.ca/fhir/client/id-issuer/BC"/>
          <value value="9123456788"/>
        </identifier>
        <patient>
          <reference value="urn:uuid:90bf49dc-4590-4302-8e28-f02bb4deb353"/>
        </patient>
        <relationship>
          <coding>
            <system value="http://terminology.hl7.org/CodeSystem/v3-RoleCode"/>
            <code value="NMTH"/>
          </coding>
        </relationship>
      </RelatedPerson>
    </resource>
    <search>
      <mode value="include"/>
    </search>
  </entry>
  <entry>
    <fullUrl value="urn:uuid:4a288971-8af6-4d77-a071-4ba3a10042e5"/>
    <resource>
      <RelatedPerson>
        <id value="RelatedPerson-MotherOfBabyGirl-Example"/>
        <text>
          <status value="generated"/><div xmlns="http://www.w3.org/1999/xhtml"><p><b>Generated Narrative</b></p><div style="display: inline-block; background-color: #d9e0e7; padding: 6px; margin: 4px; border: 1px solid #8da1b4; border-radius: 5px; line-height: 60%"><p style="margin-bottom: 0px">Resource "RelatedPerson-MotherOfBabyGirl-Example" </p></div><p><b>identifier</b>: Jurisdictional health number: 9123456788 (OFFICIAL)</p><p><b>patient</b>: <a href="#Patient_Patient-BabyGirl-Example">See above (urn:uuid:c789da11-0e78-4eb5-a9b2-d31d8249fd50)</a></p><p><b>relationship</b>: natural mother <span style="background: LightGoldenRodYellow; margin: 4px; border: 1px solid khaki"> (<a href="http://terminology.hl7.org/3.1.0/CodeSystem-v3-RoleCode.html">RoleCode</a>#NMTH)</span></p></div>
        </text>
        <identifier>
          <use value="official"/>
          <type>
            <coding>
              <system value="http://terminology.hl7.org/CodeSystem/v2-0203"/>
              <code value="JHN"/>
            </coding>
          </type>
          <system value="http://hlth.gov.bc.ca/fhir/client/id-issuer/BC"/>
          <value value="9123456788"/>
        </identifier>
        <patient>
          <reference value="urn:uuid:c789da11-0e78-4eb5-a9b2-d31d8249fd50"/>
        </patient>
        <relationship>
          <coding>
            <system value="http://terminology.hl7.org/CodeSystem/v3-RoleCode"/>
            <code value="NMTH"/>
          </coding>
        </relationship>
      </RelatedPerson>
    </resource>
    <search>
      <mode value="include"/>
    </search>
  </entry>
</Bundle>